# This list of sources to mask was generated from TCs list at
# spt3g_software/sources/spt3g_1500d_source_list_tc_05mar19.txt.
# It includes sources with a flux >= 50mJy at 150 GHz.
# The 150 GHz flux is the one recorded here.
# I removed all sources with "bad_flag" set to 1.
# -Daniel Dutcher, 11 Aug 2019
#
#
# Index	RA	DEC	Radius	Flux
#
# 	(deg)	(deg)	(deg)	(mJy)
1 	1.02400 	-43.76100 	0.0833  	58.6140
2 	1.14500 	-47.61100 	0.0833  	193.2700
3 	1.84100 	-61.21800 	0.0833  	50.3820
4 	2.00100 	-52.73100 	0.0833  	170.0550
5 	2.28700 	-46.22600 	0.0833  	65.5040
6 	3.34300 	-50.09200 	0.0833  	111.4990
7 	4.63200 	-42.04300 	0.0833  	167.0420
8 	4.67300 	-45.96900 	0.0833  	108.2880
9 	4.86100 	-56.69800 	0.0833  	161.0540
10 	5.75800 	-56.83700 	0.0833  	56.0010
11 	5.93200 	-59.51000 	0.0833  	80.0880
12 	6.03700 	-68.34300 	0.0833  	307.3600
13 	6.43600 	-48.07000 	0.0833  	127.8380
14 	7.56700 	-42.42200 	0.0833  	391.4080
15 	11.56200 	-42.13600 	0.0833  	71.6880
16 	12.31400 	-44.96000 	0.0833  	123.0210
17 	12.42000 	-70.86300 	0.0833  	167.2100
18 	12.50000 	-57.64300 	0.0833  	462.6650
19 	12.78300 	-42.45100 	0.0833  	285.7640
20 	13.95700 	-61.60800 	0.0833  	54.1060
21 	14.18600 	-44.85800 	0.0833  	52.1130
22 	14.33100 	-70.67200 	0.0833  	67.6840
23 	14.69500 	-56.98900 	0.0833  	702.6710
24 	15.31900 	-62.54900 	0.0833  	116.3080
25 	15.54400 	-56.62000 	0.0833  	116.2890
26 	15.89300 	-64.65000 	0.0833  	340.1210
27 	16.03200 	-56.95700 	0.0833  	55.7640
28 	17.31800 	-60.83000 	0.0833  	90.0900
29 	17.57600 	-63.26400 	0.0833  	71.7780
30 	18.08400 	-66.57500 	0.0833  	281.9840
31 	18.30400 	-67.88000 	0.0833  	54.8160
32 	19.23900 	-65.36300 	0.0833  	52.3660
33 	19.61300 	-51.26100 	0.0833  	57.9280
34 	19.95300 	-53.95800 	0.0833  	52.0680
35 	20.94800 	-46.39500 	0.0833  	55.7020
36 	21.23300 	-51.22500 	0.0833  	82.9410
37 	21.59400 	-51.05800 	0.0833  	50.6510
38 	21.80800 	-48.23100 	0.0833  	341.2870
39 	22.08500 	-56.83000 	0.0833  	60.1410
40 	23.26700 	-52.00500 	0.0833  	904.5620
41 	23.92800 	-42.29000 	0.0833  	53.6620
42 	25.60800 	-57.50100 	0.0833  	75.8680
43 	26.07200 	-64.36000 	0.0833  	123.9550
44 	26.69400 	-52.04700 	0.0833  	82.7550
45 	28.57400 	-51.13500 	0.0833  	63.7480
46 	28.63500 	-66.06800 	0.0833  	107.4720
47 	29.61000 	-58.18400 	0.0833  	54.0200
48 	30.28800 	-66.63300 	0.0833  	161.7710
49 	31.67200 	-61.72400 	0.0833  	96.0180
50 	31.97200 	-68.62700 	0.0833  	98.7490
51 	32.68500 	-51.02200 	0.0833  	3580.6670
52 	33.53000 	-70.44500 	0.0833  	92.5120
53 	33.54500 	-58.37000 	0.0833  	62.8550
54 	33.57200 	-61.82400 	0.0833  	168.6420
55 	35.23200 	-63.50300 	0.0833  	164.7500
56 	35.87300 	-53.79700 	0.0833  	106.8300
57 	36.08100 	-70.71600 	0.0833  	50.0190
58 	36.42600 	-45.06100 	0.0833  	199.5890
59 	37.08500 	-55.76900 	0.0833  	447.3830
60 	37.29600 	-54.05900 	0.0833  	62.0120
61 	37.79000 	-57.92000 	0.0833  	62.8550
62 	37.79500 	-47.77500 	0.0833  	256.9420
63 	38.80500 	-47.16400 	0.0833  	101.7940
64 	39.22700 	-61.60300 	0.0833  	187.0020
65 	41.47000 	-45.00100 	0.0833  	217.9360
66 	41.49600 	-46.86000 	0.0833  	600.4300
67 	41.55500 	-49.90300 	0.0833  	83.0560
68 	41.80200 	-63.42500 	0.0833  	51.8870
69 	42.86200 	-60.00200 	0.0833  	220.4130
70 	43.36500 	-54.70000 	0.0833  	754.0020
71 	44.40600 	-61.20800 	0.0833  	79.5080
72 	44.65400 	-50.87300 	0.0833  	84.7720
73 	44.70000 	-53.54000 	0.0833  	68.3710
74 	45.86100 	-52.58100 	0.0833  	53.7240
75 	45.96300 	-64.98000 	0.0833  	112.2490
76 	45.96600 	-62.18900 	0.0833  	717.3700
77 	47.48800 	-60.97700 	0.0833  	832.7750
78 	47.54500 	-57.51400 	0.0833  	71.5960
79 	48.59800 	-65.80300 	0.0833  	198.7590
80 	48.60100 	-51.08000 	0.0833  	63.9510
81 	49.48500 	-44.24600 	0.0833  	65.0120
82 	49.74100 	-56.84600 	0.0833  	51.0730
83 	50.78900 	-60.44100 	0.0833  	57.6180
84 	306.86800 	-70.11500 	0.0833  	254.1990
85 	308.96500 	-68.77000 	0.0833  	274.2560
86 	310.00600 	-57.58900 	0.0833  	89.0770
87 	310.82300 	-62.93300 	0.0833  	60.3470
88 	312.79800 	-45.44600 	0.0833  	76.7510
89 	313.05300 	-55.55500 	0.0833  	50.9320
90 	313.27900 	-62.92900 	0.0833  	64.9850
91 	313.70400 	-54.66100 	0.0833  	54.6300
92 	314.06400 	-47.25300 	0.0833  	1262.2850
93 	314.12900 	-58.33800 	0.0833  	95.7760
94 	314.40800 	-57.01100 	0.0833  	66.0440
95 	315.29200 	-44.86000 	0.0833  	50.8830
96 	315.91500 	-62.54000 	0.0833  	55.3430
97 	316.24900 	-48.81900 	0.0833  	121.3290
98 	316.75400 	-65.79200 	0.0833  	62.6310
99 	317.20600 	-48.77700 	0.0833  	52.6010
100 	317.22200 	-66.61900 	0.0833  	133.1510
101 	317.38200 	-41.18100 	0.0833  	92.1100
102 	319.90100 	-45.76000 	0.0833  	128.1900
103 	320.27100 	-61.19000 	0.0833  	141.9270
104 	321.62300 	-46.10300 	0.0833  	159.5540
105 	323.55900 	-65.22400 	0.0833  	131.1110
106 	323.82600 	-50.11900 	0.0833  	59.0290
107 	324.84500 	-42.59700 	0.0833  	80.3690
108 	325.44600 	-64.18500 	0.0833  	355.5840
109 	326.21100 	-69.77500 	0.0833  	56.6930
110 	327.56400 	-68.04200 	0.0833  	79.2120
111 	329.28900 	-69.68300 	0.0833  	934.0560
112 	329.97300 	-62.09000 	0.0833  	55.9780
113 	329.99200 	-47.87200 	0.0833  	50.0100
114 	330.01500 	-54.93000 	0.0833  	58.7660
115 	330.22300 	-55.33700 	0.0833  	131.5290
116 	331.00300 	-61.50500 	0.0833  	214.0150
117 	331.92600 	-53.77800 	0.0833  	487.2620
118 	332.08700 	-64.07000 	0.0833  	86.6960
119 	332.20300 	-63.42800 	0.0833  	94.0740
120 	332.31400 	-47.17200 	0.0833  	95.2720
121 	332.66200 	-50.45200 	0.0833  	71.0500
122 	332.89100 	-48.85300 	0.0833  	130.8830
123 	333.40000 	-63.49800 	0.0833  	54.4040
124 	334.46100 	-70.74100 	0.0833  	148.0910
125 	337.26200 	-69.16900 	0.0833  	386.6410
126 	337.72900 	-44.28300 	0.0833  	236.0330
127 	337.78800 	-62.52100 	0.0833  	96.0040
128 	338.80000 	-48.60500 	0.0833  	644.6320
129 	339.80200 	-57.01900 	0.0833  	208.3060
130 	340.78900 	-62.84800 	0.0833  	108.4000
131 	341.56700 	-56.13200 	0.0833  	147.3290
132 	342.00100 	-48.90700 	0.0833  	51.2550
133 	343.64700 	-41.67100 	0.0833  	79.0900
134 	343.73900 	-59.43400 	0.0833  	99.3340
135 	344.64600 	-70.23700 	0.0833  	79.9760
136 	345.66100 	-45.57300 	0.0833  	74.2580
137 	345.93900 	-68.12200 	0.0833  	118.0900
138 	345.96000 	-54.11500 	0.0833  	77.8820
139 	347.21600 	-45.97200 	0.0833  	164.0160
140 	347.25300 	-50.85500 	0.0833  	72.4900
141 	348.53400 	-44.93700 	0.0833  	92.4490
142 	348.92700 	-50.31600 	0.0833  	238.9650
143 	349.08200 	-43.63800 	0.0833  	65.4030
144 	349.32200 	-62.25700 	0.0833  	54.7660
145 	349.62800 	-48.31900 	0.0833  	85.1900
146 	349.65700 	-67.89700 	0.0833  	175.4640
147 	349.77100 	-42.12100 	0.0833  	61.9150
148 	350.42800 	-64.63300 	0.0833  	71.6490
149 	351.35800 	-48.01100 	0.0833  	97.8760
150 	351.66000 	-61.10200 	0.0833  	72.1660
151 	351.94400 	-66.74100 	0.0833  	75.5350
152 	352.31900 	-47.51100 	0.0833  	1071.0720
153 	352.32900 	-49.93300 	0.0833  	303.4080
154 	352.65200 	-45.67300 	0.0833  	88.7480
155 	353.07300 	-41.32000 	0.0833  	213.3540
156 	353.68000 	-52.85800 	0.0833  	81.2530
157 	354.04300 	-52.60900 	0.0833  	238.9700
158 	354.11800 	-48.12900 	0.0833  	69.8610
159 	354.13500 	-41.26500 	0.0833  	346.3570
160 	354.36400 	-59.02200 	0.0833  	59.0810
161 	355.82300 	-57.16400 	0.0833  	84.8120
162 	355.86400 	-56.44200 	0.0833  	79.7920
163 	356.82600 	-51.18100 	0.0833  	148.1630
164 	356.92400 	-49.77900 	0.0833  	198.8570
165 	357.11300 	-60.82200 	0.0833  	164.0710
166 	357.34800 	-49.54600 	0.0833  	481.6510
167 	357.89000 	-43.00100 	0.0833  	58.1220
168 	358.29200 	-48.10600 	0.0833  	110.6580
169 	359.01100 	-68.32900 	0.0833  	149.5830
170 	359.33300 	-48.64300 	0.0833  	97.2600
171 	359.46500 	-53.19000 	0.0833  	684.3420
172 	359.50400 	-45.92900 	0.0833  	273.6020
173 	359.69400 	-60.88200 	0.0833  	126.4630
174 	359.83300 	-60.94700 	0.0833  	71.0540
